onset	duration	sample	value	event_code	user_answer	correct_answer	target_count
0	n/a	0	break cnt	break cnt	n/a	n/a	8
80.966	n/a	40483	seqLearning_start	91	n/a	n/a	8
90.296	n/a	45148	learningBlock_1	31	n/a	n/a	8
90.314	n/a	45157	dot_no1_ON	11	n/a	n/a	8
90.902	n/a	45451	dot_no1_OFF	21	n/a	n/a	8
92.224	n/a	46112	dot_no6_ON	16	n/a	n/a	8
92.812	n/a	46406	dot_no6_OFF	26	n/a	n/a	8
94.132	n/a	47066	dot_no4_ON	14	n/a	n/a	8
94.722	n/a	47361	dot_no4_OFF	24	n/a	n/a	8
96.042	n/a	48021	dot_no2_ON	12	n/a	n/a	8
96.632	n/a	48316	dot_no2_OFF	22	n/a	n/a	8
97.952	n/a	48976	dot_no7_ON	17	n/a	n/a	8
98.542	n/a	49271	dot_no7_OFF	27	n/a	n/a	8
99.862	n/a	49931	dot_no3_ON	13	n/a	n/a	8
100.452	n/a	50226	dot_no3_OFF	23	n/a	n/a	8
101.772	n/a	50886	dot_no8_ON	18	n/a	n/a	8
102.362	n/a	51181	dot_no8_OFF	28	n/a	n/a	8
103.684	n/a	51842	dot_no5_ON	15	n/a	n/a	8
104.272	n/a	52136	dot_no5_OFF	25	n/a	n/a	8
105.594	n/a	52797	dot_no2_ON	12	n/a	n/a	8
106.192	n/a	53096	dot_no2_OFF	22	n/a	n/a	8
107.512	n/a	53756	dot_no7_ON	17	n/a	n/a	8
108.102	n/a	54051	dot_no7_OFF	27	1-6-2-3-7-2-5-7-8-4	1-6-4-2-7-3-8-5-2-7	8
199.536	n/a	99768	learningBlock_2	32	n/a	n/a	8
199.554	n/a	99777	dot_no1_ON	11	n/a	n/a	8
200.142	n/a	100071	dot_no1_OFF	21	n/a	n/a	8
201.464	n/a	100732	dot_no6_ON	16	n/a	n/a	8
202.062	n/a	101031	dot_no6_OFF	26	n/a	n/a	8
203.384	n/a	101692	dot_no4_ON	14	n/a	n/a	8
203.972	n/a	101986	dot_no4_OFF	24	n/a	n/a	8
205.294	n/a	102647	dot_no2_ON	12	n/a	n/a	8
205.882	n/a	102941	dot_no2_OFF	22	n/a	n/a	8
207.204	n/a	103602	dot_no7_ON	17	n/a	n/a	8
207.792	n/a	103896	dot_no7_OFF	27	n/a	n/a	8
209.114	n/a	104557	dot_no3_ON	13	n/a	n/a	8
209.702	n/a	104851	dot_no3_OFF	23	n/a	n/a	8
211.022	n/a	105511	dot_no8_ON	18	n/a	n/a	8
211.612	n/a	105806	dot_no8_OFF	28	n/a	n/a	8
212.934	n/a	106467	dot_no5_ON	15	n/a	n/a	8
213.522	n/a	106761	dot_no5_OFF	25	n/a	n/a	8
214.844	n/a	107422	dot_no2_ON	12	n/a	n/a	8
215.432	n/a	107716	dot_no2_OFF	22	n/a	n/a	8
216.754	n/a	108377	dot_no7_ON	17	n/a	n/a	8
217.342	n/a	108671	dot_no7_OFF	27	1-6-5-8-2-3-7-4-4-7	1-6-4-2-7-3-8-5-2-7	8
286.068	n/a	143034	learningBlock_3	33	n/a	n/a	8
286.084	n/a	143042	dot_no1_ON	11	n/a	n/a	8
286.674	n/a	143337	dot_no1_OFF	21	n/a	n/a	8
287.994	n/a	143997	dot_no6_ON	16	n/a	n/a	8
288.582	n/a	144291	dot_no6_OFF	26	n/a	n/a	8
289.904	n/a	144952	dot_no4_ON	14	n/a	n/a	8
290.494	n/a	145247	dot_no4_OFF	24	n/a	n/a	8
291.814	n/a	145907	dot_no2_ON	12	n/a	n/a	8
292.402	n/a	146201	dot_no2_OFF	22	n/a	n/a	8
293.724	n/a	146862	dot_no7_ON	17	n/a	n/a	8
294.314	n/a	147157	dot_no7_OFF	27	n/a	n/a	8
295.634	n/a	147817	dot_no3_ON	13	n/a	n/a	8
296.222	n/a	148111	dot_no3_OFF	23	n/a	n/a	8
297.544	n/a	148772	dot_no8_ON	18	n/a	n/a	8
298.132	n/a	149066	dot_no8_OFF	28	n/a	n/a	8
299.454	n/a	149727	dot_no5_ON	15	n/a	n/a	8
300.044	n/a	150022	dot_no5_OFF	25	n/a	n/a	8
301.364	n/a	150682	dot_no2_ON	12	n/a	n/a	8
301.952	n/a	150976	dot_no2_OFF	22	n/a	n/a	8
303.274	n/a	151637	dot_no7_ON	17	n/a	n/a	8
303.864	n/a	151932	dot_no7_OFF	27	1-5-6-7-7-3-3-2-8-4	1-6-4-2-7-3-8-5-2-7	8
334.55	n/a	167275	learningBlock_4	34	n/a	n/a	8
334.564	n/a	167282	dot_no1_ON	11	n/a	n/a	8
335.154	n/a	167577	dot_no1_OFF	21	n/a	n/a	8
336.474	n/a	168237	dot_no6_ON	16	n/a	n/a	8
337.062	n/a	168531	dot_no6_OFF	26	n/a	n/a	8
338.384	n/a	169192	dot_no4_ON	14	n/a	n/a	8
338.974	n/a	169487	dot_no4_OFF	24	n/a	n/a	8
340.294	n/a	170147	dot_no2_ON	12	n/a	n/a	8
340.884	n/a	170442	dot_no2_OFF	22	n/a	n/a	8
342.204	n/a	171102	dot_no7_ON	17	n/a	n/a	8
342.794	n/a	171397	dot_no7_OFF	27	n/a	n/a	8
344.114	n/a	172057	dot_no3_ON	13	n/a	n/a	8
344.704	n/a	172352	dot_no3_OFF	23	n/a	n/a	8
346.024	n/a	173012	dot_no8_ON	18	n/a	n/a	8
346.614	n/a	173307	dot_no8_OFF	28	n/a	n/a	8
347.934	n/a	173967	dot_no5_ON	15	n/a	n/a	8
348.524	n/a	174262	dot_no5_OFF	25	n/a	n/a	8
349.844	n/a	174922	dot_no2_ON	12	n/a	n/a	8
350.434	n/a	175217	dot_no2_OFF	22	n/a	n/a	8
351.754	n/a	175877	dot_no7_ON	17	n/a	n/a	8
352.344	n/a	176172	dot_no7_OFF	27	1-5-3-7-6-8-2-4-7-3	1-6-4-2-7-3-8-5-2-7	8
412.082	n/a	206041	learningBlock_5	35	n/a	n/a	8
412.094	n/a	206047	dot_no1_ON	11	n/a	n/a	8
412.684	n/a	206342	dot_no1_OFF	21	n/a	n/a	8
414.004	n/a	207002	dot_no6_ON	16	n/a	n/a	8
414.594	n/a	207297	dot_no6_OFF	26	n/a	n/a	8
415.916	n/a	207958	dot_no4_ON	14	n/a	n/a	8
416.504	n/a	208252	dot_no4_OFF	24	n/a	n/a	8
417.824	n/a	208912	dot_no2_ON	12	n/a	n/a	8
418.414	n/a	209207	dot_no2_OFF	22	n/a	n/a	8
419.736	n/a	209868	dot_no7_ON	17	n/a	n/a	8
420.324	n/a	210162	dot_no7_OFF	27	n/a	n/a	8
421.644	n/a	210822	dot_no3_ON	13	n/a	n/a	8
422.234	n/a	211117	dot_no3_OFF	23	n/a	n/a	8
423.556	n/a	211778	dot_no8_ON	18	n/a	n/a	8
424.144	n/a	212072	dot_no8_OFF	28	n/a	n/a	8
425.464	n/a	212732	dot_no5_ON	15	n/a	n/a	8
426.054	n/a	213027	dot_no5_OFF	25	n/a	n/a	8
427.374	n/a	213687	dot_no2_ON	12	n/a	n/a	8
427.964	n/a	213982	dot_no2_OFF	22	n/a	n/a	8
429.284	n/a	214642	dot_no7_ON	17	n/a	n/a	8
429.874	n/a	214937	dot_no7_OFF	27	1-5-7-7-2-3-4-6-8-2	1-6-4-2-7-3-8-5-2-7	8
463.548	n/a	231774	seqLearning_stop	50	n/a	n/a	8
465.607	n/a	232803.5	boundary	boundary	n/a	n/a	8
