onset	duration	sample	value	event_code	user_answer	correct_answer	target_count
0	n/a	0	break cnt	break cnt	n/a	n/a	8
85.586	n/a	42793	seqLearning_start	91	n/a	n/a	8
94.418	n/a	47209	learningBlock_1	31	n/a	n/a	8
94.436	n/a	47218	dot_no1_ON	11	n/a	n/a	8
95.026	n/a	47513	dot_no1_OFF	21	n/a	n/a	8
96.346	n/a	48173	dot_no6_ON	16	n/a	n/a	8
96.934	n/a	48467	dot_no6_OFF	26	n/a	n/a	8
98.256	n/a	49128	dot_no4_ON	14	n/a	n/a	8
98.844	n/a	49422	dot_no4_OFF	24	n/a	n/a	8
100.166	n/a	50083	dot_no2_ON	12	n/a	n/a	8
100.754	n/a	50377	dot_no2_OFF	22	n/a	n/a	8
102.076	n/a	51038	dot_no7_ON	17	n/a	n/a	8
102.664	n/a	51332	dot_no7_OFF	27	n/a	n/a	8
103.986	n/a	51993	dot_no3_ON	13	n/a	n/a	8
104.574	n/a	52287	dot_no3_OFF	23	n/a	n/a	8
105.896	n/a	52948	dot_no8_ON	18	n/a	n/a	8
106.484	n/a	53242	dot_no8_OFF	28	n/a	n/a	8
107.806	n/a	53903	dot_no5_ON	15	n/a	n/a	8
108.394	n/a	54197	dot_no5_OFF	25	n/a	n/a	8
109.716	n/a	54858	dot_no2_ON	12	n/a	n/a	8
110.304	n/a	55152	dot_no2_OFF	22	n/a	n/a	8
111.626	n/a	55813	dot_no7_ON	17	n/a	n/a	8
112.214	n/a	56107	dot_no7_OFF	27	1-6-3-8-5-2-7-4-2-3	1-6-4-2-7-3-8-5-2-7	8
147.492	n/a	73746	learningBlock_2	32	n/a	n/a	8
147.506	n/a	73753	dot_no1_ON	11	n/a	n/a	8
148.094	n/a	74047	dot_no1_OFF	21	n/a	n/a	8
149.416	n/a	74708	dot_no6_ON	16	n/a	n/a	8
150.004	n/a	75002	dot_no6_OFF	26	n/a	n/a	8
151.326	n/a	75663	dot_no4_ON	14	n/a	n/a	8
151.914	n/a	75957	dot_no4_OFF	24	n/a	n/a	8
153.236	n/a	76618	dot_no2_ON	12	n/a	n/a	8
153.824	n/a	76912	dot_no2_OFF	22	n/a	n/a	8
155.146	n/a	77573	dot_no7_ON	17	n/a	n/a	8
155.734	n/a	77867	dot_no7_OFF	27	n/a	n/a	8
157.056	n/a	78528	dot_no3_ON	13	n/a	n/a	8
157.646	n/a	78823	dot_no3_OFF	23	n/a	n/a	8
158.966	n/a	79483	dot_no8_ON	18	n/a	n/a	8
159.556	n/a	79778	dot_no8_OFF	28	n/a	n/a	8
160.876	n/a	80438	dot_no5_ON	15	n/a	n/a	8
161.464	n/a	80732	dot_no5_OFF	25	n/a	n/a	8
162.786	n/a	81393	dot_no2_ON	12	n/a	n/a	8
163.374	n/a	81687	dot_no2_OFF	22	n/a	n/a	8
164.696	n/a	82348	dot_no7_ON	17	n/a	n/a	8
165.286	n/a	82643	dot_no7_OFF	27	4-1-7-2-8-6-3-5-2-7	1-6-4-2-7-3-8-5-2-7	8
193.78	n/a	96890	learningBlock_3	33	n/a	n/a	8
193.796	n/a	96898	dot_no1_ON	11	n/a	n/a	8
194.384	n/a	97192	dot_no1_OFF	21	n/a	n/a	8
195.706	n/a	97853	dot_no6_ON	16	n/a	n/a	8
196.294	n/a	98147	dot_no6_OFF	26	n/a	n/a	8
197.616	n/a	98808	dot_no4_ON	14	n/a	n/a	8
198.206	n/a	99103	dot_no4_OFF	24	n/a	n/a	8
199.526	n/a	99763	dot_no2_ON	12	n/a	n/a	8
200.116	n/a	100058	dot_no2_OFF	22	n/a	n/a	8
201.436	n/a	100718	dot_no7_ON	17	n/a	n/a	8
202.026	n/a	101013	dot_no7_OFF	27	n/a	n/a	8
203.346	n/a	101673	dot_no3_ON	13	n/a	n/a	8
203.936	n/a	101968	dot_no3_OFF	23	n/a	n/a	8
205.256	n/a	102628	dot_no8_ON	18	n/a	n/a	8
205.844	n/a	102922	dot_no8_OFF	28	n/a	n/a	8
207.166	n/a	103583	dot_no5_ON	15	n/a	n/a	8
207.754	n/a	103877	dot_no5_OFF	25	n/a	n/a	8
209.076	n/a	104538	dot_no2_ON	12	n/a	n/a	8
209.666	n/a	104833	dot_no2_OFF	22	n/a	n/a	8
210.986	n/a	105493	dot_no7_ON	17	n/a	n/a	8
211.574	n/a	105787	dot_no7_OFF	27	1-3-6-2-7-5-1-1-8-4	1-6-4-2-7-3-8-5-2-7	8
248.45	n/a	124225	learningBlock_4	34	n/a	n/a	8
248.466	n/a	124233	dot_no1_ON	11	n/a	n/a	8
249.056	n/a	124528	dot_no1_OFF	21	n/a	n/a	8
250.376	n/a	125188	dot_no6_ON	16	n/a	n/a	8
250.966	n/a	125483	dot_no6_OFF	26	n/a	n/a	8
252.286	n/a	126143	dot_no4_ON	14	n/a	n/a	8
252.876	n/a	126438	dot_no4_OFF	24	n/a	n/a	8
254.196	n/a	127098	dot_no2_ON	12	n/a	n/a	8
254.786	n/a	127393	dot_no2_OFF	22	n/a	n/a	8
256.106	n/a	128053	dot_no7_ON	17	n/a	n/a	8
256.696	n/a	128348	dot_no7_OFF	27	n/a	n/a	8
258.016	n/a	129008	dot_no3_ON	13	n/a	n/a	8
258.606	n/a	129303	dot_no3_OFF	23	n/a	n/a	8
259.926	n/a	129963	dot_no8_ON	18	n/a	n/a	8
260.516	n/a	130258	dot_no8_OFF	28	n/a	n/a	8
261.836	n/a	130918	dot_no5_ON	15	n/a	n/a	8
262.426	n/a	131213	dot_no5_OFF	25	n/a	n/a	8
263.746	n/a	131873	dot_no2_ON	12	n/a	n/a	8
264.336	n/a	132168	dot_no2_OFF	22	n/a	n/a	8
265.656	n/a	132828	dot_no7_ON	17	n/a	n/a	8
266.246	n/a	133123	dot_no7_OFF	27	1-7-4-2-8-7-3-5-3-6	1-6-4-2-7-3-8-5-2-7	8
306.652	n/a	153326	learningBlock_5	35	n/a	n/a	8
306.666	n/a	153333	dot_no1_ON	11	n/a	n/a	8
307.256	n/a	153628	dot_no1_OFF	21	n/a	n/a	8
308.576	n/a	154288	dot_no6_ON	16	n/a	n/a	8
309.166	n/a	154583	dot_no6_OFF	26	n/a	n/a	8
310.486	n/a	155243	dot_no4_ON	14	n/a	n/a	8
311.076	n/a	155538	dot_no4_OFF	24	n/a	n/a	8
312.396	n/a	156198	dot_no2_ON	12	n/a	n/a	8
312.986	n/a	156493	dot_no2_OFF	22	n/a	n/a	8
314.306	n/a	157153	dot_no7_ON	17	n/a	n/a	8
314.896	n/a	157448	dot_no7_OFF	27	n/a	n/a	8
316.216	n/a	158108	dot_no3_ON	13	n/a	n/a	8
316.806	n/a	158403	dot_no3_OFF	23	n/a	n/a	8
318.126	n/a	159063	dot_no8_ON	18	n/a	n/a	8
318.716	n/a	159358	dot_no8_OFF	28	n/a	n/a	8
320.036	n/a	160018	dot_no5_ON	15	n/a	n/a	8
320.626	n/a	160313	dot_no5_OFF	25	n/a	n/a	8
321.946	n/a	160973	dot_no2_ON	12	n/a	n/a	8
322.536	n/a	161268	dot_no2_OFF	22	n/a	n/a	8
323.856	n/a	161928	dot_no7_ON	17	n/a	n/a	8
324.446	n/a	162223	dot_no7_OFF	27	1-7-4-8-7-7-3-2-5-6	1-6-4-2-7-3-8-5-2-7	8
344.956	n/a	172478	seqLearning_stop	50	n/a	n/a	8
346.707	n/a	173353.5	boundary	boundary	n/a	n/a	8
