onset	duration	sample	value	event_code	user_answer	correct_answer	target_count
0	n/a	0	break cnt	break cnt	n/a	n/a	8
83.988	n/a	41994	seqLearning_start	91	n/a	n/a	8
93.314	n/a	46657	learningBlock_1	31	n/a	n/a	8
93.332	n/a	46666	dot_no1_ON	11	n/a	n/a	8
93.92	n/a	46960	dot_no1_OFF	21	n/a	n/a	8
95.242	n/a	47621	dot_no6_ON	16	n/a	n/a	8
95.83	n/a	47915	dot_no6_OFF	26	n/a	n/a	8
97.152	n/a	48576	dot_no4_ON	14	n/a	n/a	8
97.742	n/a	48871	dot_no4_OFF	24	n/a	n/a	8
99.062	n/a	49531	dot_no2_ON	12	n/a	n/a	8
99.652	n/a	49826	dot_no2_OFF	22	n/a	n/a	8
100.972	n/a	50486	dot_no7_ON	17	n/a	n/a	8
101.56	n/a	50780	dot_no7_OFF	27	n/a	n/a	8
102.882	n/a	51441	dot_no3_ON	13	n/a	n/a	8
103.472	n/a	51736	dot_no3_OFF	23	n/a	n/a	8
104.792	n/a	52396	dot_no8_ON	18	n/a	n/a	8
105.39	n/a	52695	dot_no8_OFF	28	n/a	n/a	8
106.712	n/a	53356	dot_no5_ON	15	n/a	n/a	8
107.3	n/a	53650	dot_no5_OFF	25	n/a	n/a	8
108.622	n/a	54311	dot_no2_ON	12	n/a	n/a	8
109.21	n/a	54605	dot_no2_OFF	22	n/a	n/a	8
110.532	n/a	55266	dot_no7_ON	17	n/a	n/a	8
111.12	n/a	55560	dot_no7_OFF	27	1-6-4-8-2-7-3-5-7-3	1-6-4-2-7-3-8-5-2-7	8
149.22	n/a	74610	learningBlock_2	32	n/a	n/a	8
149.232	n/a	74616	dot_no1_ON	11	n/a	n/a	8
149.822	n/a	74911	dot_no1_OFF	21	n/a	n/a	8
151.142	n/a	75571	dot_no6_ON	16	n/a	n/a	8
151.732	n/a	75866	dot_no6_OFF	26	n/a	n/a	8
153.052	n/a	76526	dot_no4_ON	14	n/a	n/a	8
153.642	n/a	76821	dot_no4_OFF	24	n/a	n/a	8
154.962	n/a	77481	dot_no2_ON	12	n/a	n/a	8
155.55	n/a	77775	dot_no2_OFF	22	n/a	n/a	8
156.872	n/a	78436	dot_no7_ON	17	n/a	n/a	8
157.46	n/a	78730	dot_no7_OFF	27	n/a	n/a	8
158.782	n/a	79391	dot_no3_ON	13	n/a	n/a	8
159.37	n/a	79685	dot_no3_OFF	23	n/a	n/a	8
160.692	n/a	80346	dot_no8_ON	18	n/a	n/a	8
161.282	n/a	80641	dot_no8_OFF	28	n/a	n/a	8
162.602	n/a	81301	dot_no5_ON	15	n/a	n/a	8
163.19	n/a	81595	dot_no5_OFF	25	n/a	n/a	8
164.512	n/a	82256	dot_no2_ON	12	n/a	n/a	8
165.102	n/a	82551	dot_no2_OFF	22	n/a	n/a	8
166.422	n/a	83211	dot_no7_ON	17	n/a	n/a	8
167.012	n/a	83506	dot_no7_OFF	27	1-6-8-4-2-3-7-5-7-3	1-6-4-2-7-3-8-5-2-7	8
190.826	n/a	95413	learningBlock_3	33	n/a	n/a	8
190.832	n/a	95416	dot_no1_ON	11	n/a	n/a	8
191.422	n/a	95711	dot_no1_OFF	21	n/a	n/a	8
192.742	n/a	96371	dot_no6_ON	16	n/a	n/a	8
193.332	n/a	96666	dot_no6_OFF	26	n/a	n/a	8
194.652	n/a	97326	dot_no4_ON	14	n/a	n/a	8
195.24	n/a	97620	dot_no4_OFF	24	n/a	n/a	8
196.562	n/a	98281	dot_no2_ON	12	n/a	n/a	8
197.152	n/a	98576	dot_no2_OFF	22	n/a	n/a	8
198.472	n/a	99236	dot_no7_ON	17	n/a	n/a	8
199.062	n/a	99531	dot_no7_OFF	27	n/a	n/a	8
200.382	n/a	100191	dot_no3_ON	13	n/a	n/a	8
200.972	n/a	100486	dot_no3_OFF	23	n/a	n/a	8
202.292	n/a	101146	dot_no8_ON	18	n/a	n/a	8
202.882	n/a	101441	dot_no8_OFF	28	n/a	n/a	8
204.202	n/a	102101	dot_no5_ON	15	n/a	n/a	8
204.792	n/a	102396	dot_no5_OFF	25	n/a	n/a	8
206.112	n/a	103056	dot_no2_ON	12	n/a	n/a	8
206.702	n/a	103351	dot_no2_OFF	22	n/a	n/a	8
208.022	n/a	104011	dot_no7_ON	17	n/a	n/a	8
208.612	n/a	104306	dot_no7_OFF	27	6-1-4-7-2-5-8-3-2-7	1-6-4-2-7-3-8-5-2-7	8
231.86	n/a	115930	learningBlock_4	34	n/a	n/a	8
231.872	n/a	115936	dot_no1_ON	11	n/a	n/a	8
232.462	n/a	116231	dot_no1_OFF	21	n/a	n/a	8
233.782	n/a	116891	dot_no6_ON	16	n/a	n/a	8
234.372	n/a	117186	dot_no6_OFF	26	n/a	n/a	8
235.692	n/a	117846	dot_no4_ON	14	n/a	n/a	8
236.282	n/a	118141	dot_no4_OFF	24	n/a	n/a	8
237.602	n/a	118801	dot_no2_ON	12	n/a	n/a	8
238.192	n/a	119096	dot_no2_OFF	22	n/a	n/a	8
239.512	n/a	119756	dot_no7_ON	17	n/a	n/a	8
240.102	n/a	120051	dot_no7_OFF	27	n/a	n/a	8
241.422	n/a	120711	dot_no3_ON	13	n/a	n/a	8
242.012	n/a	121006	dot_no3_OFF	23	n/a	n/a	8
243.332	n/a	121666	dot_no8_ON	18	n/a	n/a	8
243.922	n/a	121961	dot_no8_OFF	28	n/a	n/a	8
245.242	n/a	122621	dot_no5_ON	15	n/a	n/a	8
245.832	n/a	122916	dot_no5_OFF	25	n/a	n/a	8
247.152	n/a	123576	dot_no2_ON	12	n/a	n/a	8
247.742	n/a	123871	dot_no2_OFF	22	n/a	n/a	8
249.062	n/a	124531	dot_no7_ON	17	n/a	n/a	8
249.652	n/a	124826	dot_no7_OFF	27	6-1-4-2-3-5-7-8-3-5	1-6-4-2-7-3-8-5-2-7	8
285.268	n/a	142634	learningBlock_5	35	n/a	n/a	8
285.282	n/a	142641	dot_no1_ON	11	n/a	n/a	8
285.872	n/a	142936	dot_no1_OFF	21	n/a	n/a	8
287.194	n/a	143597	dot_no6_ON	16	n/a	n/a	8
287.782	n/a	143891	dot_no6_OFF	26	n/a	n/a	8
289.102	n/a	144551	dot_no4_ON	14	n/a	n/a	8
289.692	n/a	144846	dot_no4_OFF	24	n/a	n/a	8
291.012	n/a	145506	dot_no2_ON	12	n/a	n/a	8
291.602	n/a	145801	dot_no2_OFF	22	n/a	n/a	8
292.922	n/a	146461	dot_no7_ON	17	n/a	n/a	8
293.512	n/a	146756	dot_no7_OFF	27	n/a	n/a	8
294.834	n/a	147417	dot_no3_ON	13	n/a	n/a	8
295.422	n/a	147711	dot_no3_OFF	23	n/a	n/a	8
296.742	n/a	148371	dot_no8_ON	18	n/a	n/a	8
297.332	n/a	148666	dot_no8_OFF	28	n/a	n/a	8
298.652	n/a	149326	dot_no5_ON	15	n/a	n/a	8
299.242	n/a	149621	dot_no5_OFF	25	n/a	n/a	8
300.564	n/a	150282	dot_no2_ON	12	n/a	n/a	8
301.152	n/a	150576	dot_no2_OFF	22	n/a	n/a	8
302.474	n/a	151237	dot_no7_ON	17	n/a	n/a	8
303.062	n/a	151531	dot_no7_OFF	27	6-1-4-8-5-2-7-3-5-3	1-6-4-2-7-3-8-5-2-7	8
327.672	n/a	163836	seqLearning_stop	50	n/a	n/a	8
329.655	n/a	164827.5	boundary	boundary	n/a	n/a	8
