onset	duration	sample	value	event_code	user_answer	correct_answer
0	n/a	0	break cnt	break cnt	n/a	n/a
286.452	n/a	143226	symbolSearch_start	92	n/a	n/a
292.358	n/a	146179	newPage	20	n/a	n/a
303.554	n/a	151777	trialResponse	14	0	0
310.366	n/a	155183	trialResponse	14	1	1
316.258	n/a	158129	trialResponse	14	0	0
321.418	n/a	160709	trialResponse	14	0	0
330.402	n/a	165201	trialResponse	14	1	0
335.81	n/a	167905	trialResponse	14	1	1
341.748	n/a	170874	trialResponse	14	0	0
346.028	n/a	173014	trialResponse	14	1	1
357.962	n/a	178981	trialResponse	14	0	0
368.61	n/a	184305	trialResponse	14	0	0
371.924	n/a	185962	trialResponse	14	0	0
374.394	n/a	187197	trialResponse	14	1	1
377.54	n/a	188770	trialResponse	14	0	0
382.77	n/a	191385	trialResponse	14	0	1
383.132	n/a	191566	trialResponse	14	0	1
384.828	n/a	192414	newPage	20	n/a	n/a
389.076	n/a	194538	trialResponse	14	1	1
392.554	n/a	196277	trialResponse	14	0	1
394.658	n/a	197329	trialResponse	14	0	0
400.154	n/a	200077	trialResponse	14	1	1
408.394	n/a	204197	trialResponse	14	1	0
419.914	n/a	209957	trialResponse	14	1	1
419.932	n/a	209966	newPage	20	n/a	n/a
424.257	n/a	212128.5	boundary	boundary	n/a	n/a
