onset	duration	sample	value	event_code	user_answer	correct_answer	target_count
0	n/a	0	break cnt	break cnt	n/a	n/a	8
160.49	n/a	80245	seqLearning_start	91	n/a	n/a	8
169.818	n/a	84909	learningBlock_1	31	n/a	n/a	8
169.854	n/a	84927	dot_no1_ON	11	n/a	n/a	8
170.444	n/a	85222	dot_no1_OFF	21	n/a	n/a	8
171.764	n/a	85882	dot_no6_ON	16	n/a	n/a	8
172.352	n/a	86176	dot_no6_OFF	26	n/a	n/a	8
173.674	n/a	86837	dot_no4_ON	14	n/a	n/a	8
174.264	n/a	87132	dot_no4_OFF	24	n/a	n/a	8
175.584	n/a	87792	dot_no2_ON	12	n/a	n/a	8
176.172	n/a	88086	dot_no2_OFF	22	n/a	n/a	8
177.494	n/a	88747	dot_no7_ON	17	n/a	n/a	8
178.082	n/a	89041	dot_no7_OFF	27	n/a	n/a	8
179.404	n/a	89702	dot_no3_ON	13	n/a	n/a	8
179.992	n/a	89996	dot_no3_OFF	23	n/a	n/a	8
181.314	n/a	90657	dot_no8_ON	18	n/a	n/a	8
181.902	n/a	90951	dot_no8_OFF	28	n/a	n/a	8
183.224	n/a	91612	dot_no5_ON	15	n/a	n/a	8
183.814	n/a	91907	dot_no5_OFF	25	n/a	n/a	8
185.134	n/a	92567	dot_no2_ON	12	n/a	n/a	8
185.724	n/a	92862	dot_no2_OFF	22	n/a	n/a	8
187.044	n/a	93522	dot_no7_ON	17	n/a	n/a	8
187.632	n/a	93816	dot_no7_OFF	27	1-5-3-8-4-2-6-5-7-1	1-6-4-2-7-3-8-5-2-7	8
220.97	n/a	110485	learningBlock_2	32	n/a	n/a	8
220.984	n/a	110492	dot_no1_ON	11	n/a	n/a	8
221.572	n/a	110786	dot_no1_OFF	21	n/a	n/a	8
222.894	n/a	111447	dot_no6_ON	16	n/a	n/a	8
223.482	n/a	111741	dot_no6_OFF	26	n/a	n/a	8
224.804	n/a	112402	dot_no4_ON	14	n/a	n/a	8
225.394	n/a	112697	dot_no4_OFF	24	n/a	n/a	8
226.714	n/a	113357	dot_no2_ON	12	n/a	n/a	8
227.302	n/a	113651	dot_no2_OFF	22	n/a	n/a	8
228.624	n/a	114312	dot_no7_ON	17	n/a	n/a	8
229.212	n/a	114606	dot_no7_OFF	27	n/a	n/a	8
230.534	n/a	115267	dot_no3_ON	13	n/a	n/a	8
231.122	n/a	115561	dot_no3_OFF	23	n/a	n/a	8
232.444	n/a	116222	dot_no8_ON	18	n/a	n/a	8
233.032	n/a	116516	dot_no8_OFF	28	n/a	n/a	8
234.354	n/a	117177	dot_no5_ON	15	n/a	n/a	8
234.944	n/a	117472	dot_no5_OFF	25	n/a	n/a	8
236.264	n/a	118132	dot_no2_ON	12	n/a	n/a	8
236.854	n/a	118427	dot_no2_OFF	22	n/a	n/a	8
238.174	n/a	119087	dot_no7_ON	17	n/a	n/a	8
238.762	n/a	119381	dot_no7_OFF	27	1-5-3-7-8-2-4-6-6-1	1-6-4-2-7-3-8-5-2-7	8
262.38	n/a	131190	learningBlock_3	33	n/a	n/a	8
262.394	n/a	131197	dot_no1_ON	11	n/a	n/a	8
262.984	n/a	131492	dot_no1_OFF	21	n/a	n/a	8
264.304	n/a	132152	dot_no6_ON	16	n/a	n/a	8
264.894	n/a	132447	dot_no6_OFF	26	n/a	n/a	8
266.214	n/a	133107	dot_no4_ON	14	n/a	n/a	8
266.804	n/a	133402	dot_no4_OFF	24	n/a	n/a	8
268.124	n/a	134062	dot_no2_ON	12	n/a	n/a	8
268.714	n/a	134357	dot_no2_OFF	22	n/a	n/a	8
270.034	n/a	135017	dot_no7_ON	17	n/a	n/a	8
270.624	n/a	135312	dot_no7_OFF	27	n/a	n/a	8
271.944	n/a	135972	dot_no3_ON	13	n/a	n/a	8
272.534	n/a	136267	dot_no3_OFF	23	n/a	n/a	8
273.854	n/a	136927	dot_no8_ON	18	n/a	n/a	8
274.442	n/a	137221	dot_no8_OFF	28	n/a	n/a	8
275.764	n/a	137882	dot_no5_ON	15	n/a	n/a	8
276.354	n/a	138177	dot_no5_OFF	25	n/a	n/a	8
277.674	n/a	138837	dot_no2_ON	12	n/a	n/a	8
278.264	n/a	139132	dot_no2_OFF	22	n/a	n/a	8
279.584	n/a	139792	dot_no7_ON	17	n/a	n/a	8
280.174	n/a	140087	dot_no7_OFF	27	1-5-3-2-6-8-4-7-5-7	1-6-4-2-7-3-8-5-2-7	8
308.558	n/a	154279	learningBlock_4	34	n/a	n/a	8
308.564	n/a	154282	dot_no1_ON	11	n/a	n/a	8
309.154	n/a	154577	dot_no1_OFF	21	n/a	n/a	8
310.474	n/a	155237	dot_no6_ON	16	n/a	n/a	8
311.064	n/a	155532	dot_no6_OFF	26	n/a	n/a	8
312.384	n/a	156192	dot_no4_ON	14	n/a	n/a	8
312.974	n/a	156487	dot_no4_OFF	24	n/a	n/a	8
314.294	n/a	157147	dot_no2_ON	12	n/a	n/a	8
314.884	n/a	157442	dot_no2_OFF	22	n/a	n/a	8
316.204	n/a	158102	dot_no7_ON	17	n/a	n/a	8
316.794	n/a	158397	dot_no7_OFF	27	n/a	n/a	8
318.114	n/a	159057	dot_no3_ON	13	n/a	n/a	8
318.704	n/a	159352	dot_no3_OFF	23	n/a	n/a	8
320.024	n/a	160012	dot_no8_ON	18	n/a	n/a	8
320.614	n/a	160307	dot_no8_OFF	28	n/a	n/a	8
321.934	n/a	160967	dot_no5_ON	15	n/a	n/a	8
322.528	n/a	161264	dot_no5_OFF	25	n/a	n/a	8
323.854	n/a	161927	dot_no2_ON	12	n/a	n/a	8
324.444	n/a	162222	dot_no2_OFF	22	n/a	n/a	8
325.764	n/a	162882	dot_no7_ON	17	n/a	n/a	8
326.354	n/a	163177	dot_no7_OFF	27	1-6-3-2-7-8-5-4-5-1	1-6-4-2-7-3-8-5-2-7	8
346.958	n/a	173479	learningBlock_5	35	n/a	n/a	8
346.974	n/a	173487	dot_no1_ON	11	n/a	n/a	8
347.564	n/a	173782	dot_no1_OFF	21	n/a	n/a	8
348.884	n/a	174442	dot_no6_ON	16	n/a	n/a	8
349.474	n/a	174737	dot_no6_OFF	26	n/a	n/a	8
350.794	n/a	175397	dot_no4_ON	14	n/a	n/a	8
351.384	n/a	175692	dot_no4_OFF	24	n/a	n/a	8
352.704	n/a	176352	dot_no2_ON	12	n/a	n/a	8
353.294	n/a	176647	dot_no2_OFF	22	n/a	n/a	8
354.614	n/a	177307	dot_no7_ON	17	n/a	n/a	8
355.204	n/a	177602	dot_no7_OFF	27	n/a	n/a	8
356.526	n/a	178263	dot_no3_ON	13	n/a	n/a	8
357.114	n/a	178557	dot_no3_OFF	23	n/a	n/a	8
358.434	n/a	179217	dot_no8_ON	18	n/a	n/a	8
359.024	n/a	179512	dot_no8_OFF	28	n/a	n/a	8
360.346	n/a	180173	dot_no5_ON	15	n/a	n/a	8
360.934	n/a	180467	dot_no5_OFF	25	n/a	n/a	8
362.254	n/a	181127	dot_no2_ON	12	n/a	n/a	8
362.844	n/a	181422	dot_no2_OFF	22	n/a	n/a	8
364.164	n/a	182082	dot_no7_ON	17	n/a	n/a	8
364.754	n/a	182377	dot_no7_OFF	27	1-6-3-8-4-2-7-5-7-7	1-6-4-2-7-3-8-5-2-7	8
390.408	n/a	195204	seqLearning_stop	50	n/a	n/a	8
392.307	n/a	196153.5	boundary	boundary	n/a	n/a	8
