onset	duration	sample	value	event_code	user_answer	correct_answer	target_count
0	n/a	0	break cnt	break cnt	n/a	n/a	8
28.13	n/a	14065	seqLearning_start	91	n/a	n/a	8
37.452	n/a	18726	learningBlock_1	31	n/a	n/a	8
37.47	n/a	18735	dot_no1_ON	11	n/a	n/a	8
38.058	n/a	19029	dot_no1_OFF	21	n/a	n/a	8
39.38	n/a	19690	dot_no6_ON	16	n/a	n/a	8
39.968	n/a	19984	dot_no6_OFF	26	n/a	n/a	8
41.29	n/a	20645	dot_no4_ON	14	n/a	n/a	8
41.878	n/a	20939	dot_no4_OFF	24	n/a	n/a	8
43.2	n/a	21600	dot_no2_ON	12	n/a	n/a	8
43.788	n/a	21894	dot_no2_OFF	22	n/a	n/a	8
45.11	n/a	22555	dot_no7_ON	17	n/a	n/a	8
45.698	n/a	22849	dot_no7_OFF	27	n/a	n/a	8
47.02	n/a	23510	dot_no3_ON	13	n/a	n/a	8
47.61	n/a	23805	dot_no3_OFF	23	n/a	n/a	8
48.93	n/a	24465	dot_no8_ON	18	n/a	n/a	8
49.518	n/a	24759	dot_no8_OFF	28	n/a	n/a	8
50.84	n/a	25420	dot_no5_ON	15	n/a	n/a	8
51.428	n/a	25714	dot_no5_OFF	25	n/a	n/a	8
52.75	n/a	26375	dot_no2_ON	12	n/a	n/a	8
53.338	n/a	26669	dot_no2_OFF	22	n/a	n/a	8
54.66	n/a	27330	dot_no7_ON	17	n/a	n/a	8
55.248	n/a	27624	dot_no7_OFF	27	1-6-4-1-7-5-2-7-3-8	1-6-4-2-7-3-8-5-2-7	8
81.882	n/a	40941	learningBlock_2	32	n/a	n/a	8
81.89	n/a	40945	dot_no1_ON	11	n/a	n/a	8
82.478	n/a	41239	dot_no1_OFF	21	n/a	n/a	8
83.8	n/a	41900	dot_no6_ON	16	n/a	n/a	8
84.388	n/a	42194	dot_no6_OFF	26	n/a	n/a	8
85.71	n/a	42855	dot_no4_ON	14	n/a	n/a	8
86.3	n/a	43150	dot_no4_OFF	24	n/a	n/a	8
87.62	n/a	43810	dot_no2_ON	12	n/a	n/a	8
88.208	n/a	44104	dot_no2_OFF	22	n/a	n/a	8
89.53	n/a	44765	dot_no7_ON	17	n/a	n/a	8
90.118	n/a	45059	dot_no7_OFF	27	n/a	n/a	8
91.44	n/a	45720	dot_no3_ON	13	n/a	n/a	8
92.028	n/a	46014	dot_no3_OFF	23	n/a	n/a	8
93.35	n/a	46675	dot_no8_ON	18	n/a	n/a	8
93.938	n/a	46969	dot_no8_OFF	28	n/a	n/a	8
95.26	n/a	47630	dot_no5_ON	15	n/a	n/a	8
95.848	n/a	47924	dot_no5_OFF	25	n/a	n/a	8
97.17	n/a	48585	dot_no2_ON	12	n/a	n/a	8
97.758	n/a	48879	dot_no2_OFF	22	n/a	n/a	8
99.08	n/a	49540	dot_no7_ON	17	n/a	n/a	8
99.668	n/a	49834	dot_no7_OFF	27	1-6-4-2-7-3-5-8-3-2	1-6-4-2-7-3-8-5-2-7	8
128.992	n/a	64496	learningBlock_3	33	n/a	n/a	8
129	n/a	64500	dot_no1_ON	11	n/a	n/a	8
129.59	n/a	64795	dot_no1_OFF	21	n/a	n/a	8
130.91	n/a	65455	dot_no6_ON	16	n/a	n/a	8
131.5	n/a	65750	dot_no6_OFF	26	n/a	n/a	8
132.82	n/a	66410	dot_no4_ON	14	n/a	n/a	8
133.408	n/a	66704	dot_no4_OFF	24	n/a	n/a	8
134.73	n/a	67365	dot_no2_ON	12	n/a	n/a	8
135.32	n/a	67660	dot_no2_OFF	22	n/a	n/a	8
136.64	n/a	68320	dot_no7_ON	17	n/a	n/a	8
137.228	n/a	68614	dot_no7_OFF	27	n/a	n/a	8
138.55	n/a	69275	dot_no3_ON	13	n/a	n/a	8
139.14	n/a	69570	dot_no3_OFF	23	n/a	n/a	8
140.46	n/a	70230	dot_no8_ON	18	n/a	n/a	8
141.05	n/a	70525	dot_no8_OFF	28	n/a	n/a	8
142.37	n/a	71185	dot_no5_ON	15	n/a	n/a	8
142.958	n/a	71479	dot_no5_OFF	25	n/a	n/a	8
144.28	n/a	72140	dot_no2_ON	12	n/a	n/a	8
144.868	n/a	72434	dot_no2_OFF	22	n/a	n/a	8
146.19	n/a	73095	dot_no7_ON	17	n/a	n/a	8
146.78	n/a	73390	dot_no7_OFF	27	1-6-4-7-3-8-5-2-7-8	1-6-4-2-7-3-8-5-2-7	8
180.528	n/a	90264	learningBlock_4	34	n/a	n/a	8
180.54	n/a	90270	dot_no1_ON	11	n/a	n/a	8
181.128	n/a	90564	dot_no1_OFF	21	n/a	n/a	8
182.45	n/a	91225	dot_no6_ON	16	n/a	n/a	8
183.038	n/a	91519	dot_no6_OFF	26	n/a	n/a	8
184.36	n/a	92180	dot_no4_ON	14	n/a	n/a	8
184.95	n/a	92475	dot_no4_OFF	24	n/a	n/a	8
186.27	n/a	93135	dot_no2_ON	12	n/a	n/a	8
186.858	n/a	93429	dot_no2_OFF	22	n/a	n/a	8
188.18	n/a	94090	dot_no7_ON	17	n/a	n/a	8
188.77	n/a	94385	dot_no7_OFF	27	n/a	n/a	8
190.09	n/a	95045	dot_no3_ON	13	n/a	n/a	8
190.678	n/a	95339	dot_no3_OFF	23	n/a	n/a	8
192	n/a	96000	dot_no8_ON	18	n/a	n/a	8
192.59	n/a	96295	dot_no8_OFF	28	n/a	n/a	8
193.91	n/a	96955	dot_no5_ON	15	n/a	n/a	8
194.5	n/a	97250	dot_no5_OFF	25	n/a	n/a	8
195.82	n/a	97910	dot_no2_ON	12	n/a	n/a	8
196.41	n/a	98205	dot_no2_OFF	22	n/a	n/a	8
197.73	n/a	98865	dot_no7_ON	17	n/a	n/a	8
198.318	n/a	99159	dot_no7_OFF	27	1-6-4-7-3-8-2-5-2-7	1-6-4-2-7-3-8-5-2-7	8
228.808	n/a	114404	learningBlock_5	35	n/a	n/a	8
228.82	n/a	114410	dot_no1_ON	11	n/a	n/a	8
229.41	n/a	114705	dot_no1_OFF	21	n/a	n/a	8
230.73	n/a	115365	dot_no6_ON	16	n/a	n/a	8
231.32	n/a	115660	dot_no6_OFF	26	n/a	n/a	8
232.64	n/a	116320	dot_no4_ON	14	n/a	n/a	8
233.23	n/a	116615	dot_no4_OFF	24	n/a	n/a	8
234.55	n/a	117275	dot_no2_ON	12	n/a	n/a	8
235.14	n/a	117570	dot_no2_OFF	22	n/a	n/a	8
236.46	n/a	118230	dot_no7_ON	17	n/a	n/a	8
237.05	n/a	118525	dot_no7_OFF	27	n/a	n/a	8
238.37	n/a	119185	dot_no3_ON	13	n/a	n/a	8
238.96	n/a	119480	dot_no3_OFF	23	n/a	n/a	8
240.28	n/a	120140	dot_no8_ON	18	n/a	n/a	8
240.87	n/a	120435	dot_no8_OFF	28	n/a	n/a	8
242.19	n/a	121095	dot_no5_ON	15	n/a	n/a	8
242.78	n/a	121390	dot_no5_OFF	25	n/a	n/a	8
244.1	n/a	122050	dot_no2_ON	12	n/a	n/a	8
244.69	n/a	122345	dot_no2_OFF	22	n/a	n/a	8
246.01	n/a	123005	dot_no7_ON	17	n/a	n/a	8
246.6	n/a	123300	dot_no7_OFF	27	1-6-4-2-7-3-8-5-2-7	1-6-4-2-7-3-8-5-2-7	8
264.66	n/a	132330	seqLearning_stop	50	n/a	n/a	8
266.451	n/a	133225.5	boundary	boundary	n/a	n/a	8
