onset	duration	sample	value	event_code	user_answer	correct_answer	target_count
0	n/a	0	break cnt	break cnt	n/a	n/a	8
39.516	n/a	19758	seqLearning_start	91	n/a	n/a	8
45.762	n/a	22881	learningBlock_1	31	n/a	n/a	8
45.794	n/a	22897	dot_no1_ON	11	n/a	n/a	8
46.384	n/a	23192	dot_no1_OFF	21	n/a	n/a	8
47.702	n/a	23851	dot_no6_ON	16	n/a	n/a	8
48.282	n/a	24141	dot_no6_OFF	26	n/a	n/a	8
49.602	n/a	24801	dot_no4_ON	14	n/a	n/a	8
50.192	n/a	25096	dot_no4_OFF	24	n/a	n/a	8
51.512	n/a	25756	dot_no2_ON	12	n/a	n/a	8
52.092	n/a	26046	dot_no2_OFF	22	n/a	n/a	8
53.412	n/a	26706	dot_no7_ON	17	n/a	n/a	8
53.992	n/a	26996	dot_no7_OFF	27	n/a	n/a	8
55.312	n/a	27656	dot_no3_ON	13	n/a	n/a	8
55.892	n/a	27946	dot_no3_OFF	23	n/a	n/a	8
57.212	n/a	28606	dot_no8_ON	18	n/a	n/a	8
57.792	n/a	28896	dot_no8_OFF	28	n/a	n/a	8
59.112	n/a	29556	dot_no5_ON	15	n/a	n/a	8
59.692	n/a	29846	dot_no5_OFF	25	n/a	n/a	8
61.012	n/a	30506	dot_no2_ON	12	n/a	n/a	8
61.592	n/a	30796	dot_no2_OFF	22	n/a	n/a	8
62.912	n/a	31456	dot_no7_ON	17	n/a	n/a	8
63.492	n/a	31746	dot_no7_OFF	27	7-1-3-3-4-6-8-7-5-4	1-6-4-2-7-3-8-5-2-7	8
109.716	n/a	54858	learningBlock_2	32	n/a	n/a	8
109.724	n/a	54862	dot_no1_ON	11	n/a	n/a	8
110.304	n/a	55152	dot_no1_OFF	21	n/a	n/a	8
111.624	n/a	55812	dot_no6_ON	16	n/a	n/a	8
112.204	n/a	56102	dot_no6_OFF	26	n/a	n/a	8
113.524	n/a	56762	dot_no4_ON	14	n/a	n/a	8
114.104	n/a	57052	dot_no4_OFF	24	n/a	n/a	8
115.424	n/a	57712	dot_no2_ON	12	n/a	n/a	8
116.004	n/a	58002	dot_no2_OFF	22	n/a	n/a	8
117.324	n/a	58662	dot_no7_ON	17	n/a	n/a	8
117.904	n/a	58952	dot_no7_OFF	27	n/a	n/a	8
119.224	n/a	59612	dot_no3_ON	13	n/a	n/a	8
119.804	n/a	59902	dot_no3_OFF	23	n/a	n/a	8
121.124	n/a	60562	dot_no8_ON	18	n/a	n/a	8
121.704	n/a	60852	dot_no8_OFF	28	n/a	n/a	8
123.024	n/a	61512	dot_no5_ON	15	n/a	n/a	8
123.624	n/a	61812	dot_no5_OFF	25	n/a	n/a	8
124.944	n/a	62472	dot_no2_ON	12	n/a	n/a	8
125.524	n/a	62762	dot_no2_OFF	22	n/a	n/a	8
126.846	n/a	63423	dot_no7_ON	17	n/a	n/a	8
127.434	n/a	63717	dot_no7_OFF	27	7-2-5-3-4-6-8-8-1-7	1-6-4-2-7-3-8-5-2-7	8
155.326	n/a	77663	learningBlock_3	33	n/a	n/a	8
155.334	n/a	77667	dot_no1_ON	11	n/a	n/a	8
155.914	n/a	77957	dot_no1_OFF	21	n/a	n/a	8
157.234	n/a	78617	dot_no6_ON	16	n/a	n/a	8
157.814	n/a	78907	dot_no6_OFF	26	n/a	n/a	8
159.136	n/a	79568	dot_no4_ON	14	n/a	n/a	8
159.714	n/a	79857	dot_no4_OFF	24	n/a	n/a	8
161.036	n/a	80518	dot_no2_ON	12	n/a	n/a	8
161.614	n/a	80807	dot_no2_OFF	22	n/a	n/a	8
162.934	n/a	81467	dot_no7_ON	17	n/a	n/a	8
163.516	n/a	81758	dot_no7_OFF	27	n/a	n/a	8
164.836	n/a	82418	dot_no3_ON	13	n/a	n/a	8
165.416	n/a	82708	dot_no3_OFF	23	n/a	n/a	8
166.736	n/a	83368	dot_no8_ON	18	n/a	n/a	8
167.326	n/a	83663	dot_no8_OFF	28	n/a	n/a	8
168.646	n/a	84323	dot_no5_ON	15	n/a	n/a	8
169.226	n/a	84613	dot_no5_OFF	25	n/a	n/a	8
170.546	n/a	85273	dot_no2_ON	12	n/a	n/a	8
171.126	n/a	85563	dot_no2_OFF	22	n/a	n/a	8
172.446	n/a	86223	dot_no7_ON	17	n/a	n/a	8
173.026	n/a	86513	dot_no7_OFF	27	7-8-1-2-3-4-6-5-7-3	1-6-4-2-7-3-8-5-2-7	8
204.808	n/a	102404	learningBlock_4	34	n/a	n/a	8
204.816	n/a	102408	dot_no1_ON	11	n/a	n/a	8
205.396	n/a	102698	dot_no1_OFF	21	n/a	n/a	8
206.716	n/a	103358	dot_no6_ON	16	n/a	n/a	8
207.296	n/a	103648	dot_no6_OFF	26	n/a	n/a	8
208.616	n/a	104308	dot_no4_ON	14	n/a	n/a	8
209.206	n/a	104603	dot_no4_OFF	24	n/a	n/a	8
210.526	n/a	105263	dot_no2_ON	12	n/a	n/a	8
211.116	n/a	105558	dot_no2_OFF	22	n/a	n/a	8
212.436	n/a	106218	dot_no7_ON	17	n/a	n/a	8
213.018	n/a	106509	dot_no7_OFF	27	n/a	n/a	8
214.356	n/a	107178	dot_no3_ON	13	n/a	n/a	8
214.936	n/a	107468	dot_no3_OFF	23	n/a	n/a	8
216.256	n/a	108128	dot_no8_ON	18	n/a	n/a	8
216.846	n/a	108423	dot_no8_OFF	28	n/a	n/a	8
218.166	n/a	109083	dot_no5_ON	15	n/a	n/a	8
218.746	n/a	109373	dot_no5_OFF	25	n/a	n/a	8
220.066	n/a	110033	dot_no2_ON	12	n/a	n/a	8
220.646	n/a	110323	dot_no2_OFF	22	n/a	n/a	8
221.966	n/a	110983	dot_no7_ON	17	n/a	n/a	8
222.546	n/a	111273	dot_no7_OFF	27	7-5-3-7-7-6-4-1-2-8	1-6-4-2-7-3-8-5-2-7	8
289.43	n/a	144715	learningBlock_5	35	n/a	n/a	8
289.438	n/a	144719	dot_no1_ON	11	n/a	n/a	8
290.018	n/a	145009	dot_no1_OFF	21	n/a	n/a	8
291.338	n/a	145669	dot_no6_ON	16	n/a	n/a	8
291.918	n/a	145959	dot_no6_OFF	26	n/a	n/a	8
293.238	n/a	146619	dot_no4_ON	14	n/a	n/a	8
293.818	n/a	146909	dot_no4_OFF	24	n/a	n/a	8
295.138	n/a	147569	dot_no2_ON	12	n/a	n/a	8
295.718	n/a	147859	dot_no2_OFF	22	n/a	n/a	8
297.038	n/a	148519	dot_no7_ON	17	n/a	n/a	8
297.618	n/a	148809	dot_no7_OFF	27	n/a	n/a	8
298.938	n/a	149469	dot_no3_ON	13	n/a	n/a	8
299.518	n/a	149759	dot_no3_OFF	23	n/a	n/a	8
300.838	n/a	150419	dot_no8_ON	18	n/a	n/a	8
301.418	n/a	150709	dot_no8_OFF	28	n/a	n/a	8
302.738	n/a	151369	dot_no5_ON	15	n/a	n/a	8
303.318	n/a	151659	dot_no5_OFF	25	n/a	n/a	8
304.638	n/a	152319	dot_no2_ON	12	n/a	n/a	8
305.228	n/a	152614	dot_no2_OFF	22	n/a	n/a	8
306.548	n/a	153274	dot_no7_ON	17	n/a	n/a	8
307.128	n/a	153564	dot_no7_OFF	27	7-3-5-1-2-6-8-4-7-7	1-6-4-2-7-3-8-5-2-7	8
345.72	n/a	172860	seqLearning_stop	50	n/a	n/a	8
350.217	n/a	175108.5	boundary	boundary	n/a	n/a	8
